transmittance,probability_density
2.581e-04,0.000e+00
7.744e-04,0.000e+00
1.291e-03,0.000e+00
1.807e-03,0.000e+00
2.323e-03,0.000e+00
2.840e-03,0.000e+00
3.356e-03,0.000e+00
3.872e-03,0.000e+00
4.388e-03,0.000e+00
4.905e-03,0.000e+00
5.421e-03,0.000e+00
5.937e-03,9.431e-03
6.454e-03,4.715e-03
6.970e-03,9.431e-03
7.486e-03,9.431e-03
8.002e-03,6.130e-02
8.519e-03,5.658e-02
9.035e-03,9.431e-02
9.551e-03,2.263e-01
1.007e-02,3.112e-01
1.058e-02,4.904e-01
1.110e-02,6.790e-01
1.162e-02,1.009e+00
1.213e-02,1.509e+00
1.265e-02,1.679e+00
1.317e-02,2.499e+00
1.368e-02,3.192e+00
1.420e-02,4.225e+00
1.471e-02,4.890e+00
1.523e-02,6.550e+00
1.575e-02,7.681e+00
1.626e-02,9.195e+00
1.678e-02,1.064e+01
1.730e-02,1.242e+01
1.781e-02,1.456e+01
1.833e-02,1.704e+01
1.884e-02,1.892e+01
1.936e-02,2.091e+01
1.988e-02,2.379e+01
2.039e-02,2.607e+01
2.091e-02,2.715e+01
2.143e-02,2.966e+01
2.194e-02,3.220e+01
2.246e-02,3.434e+01
2.297e-02,3.628e+01
2.349e-02,3.842e+01
2.401e-02,4.041e+01
2.452e-02,4.140e+01
2.504e-02,4.240e+01
2.556e-02,4.425e+01
2.607e-02,4.566e+01
2.659e-02,4.634e+01
2.710e-02,4.646e+01
2.762e-02,4.665e+01
2.814e-02,4.728e+01
2.865e-02,4.792e+01
2.917e-02,4.732e+01
2.969e-02,4.585e+01
3.020e-02,4.622e+01
3.072e-02,4.479e+01
3.124e-02,4.433e+01
3.175e-02,4.379e+01
3.227e-02,4.383e+01
3.278e-02,4.202e+01
3.330e-02,4.115e+01
3.382e-02,4.040e+01
3.433e-02,3.869e+01
3.485e-02,3.610e+01
3.537e-02,3.587e+01
3.588e-02,3.417e+01
3.640e-02,3.254e+01
3.691e-02,3.129e+01
3.743e-02,2.978e+01
3.795e-02,2.849e+01
3.846e-02,2.697e+01
3.898e-02,2.544e+01
3.950e-02,2.426e+01
4.001e-02,2.307e+01
4.053e-02,2.133e+01
4.104e-02,2.059e+01
4.156e-02,1.917e+01
4.208e-02,1.778e+01
4.259e-02,1.654e+01
4.311e-02,1.549e+01
4.363e-02,1.433e+01
4.414e-02,1.350e+01
4.466e-02,1.228e+01
4.517e-02,1.173e+01
4.569e-02,1.083e+01
4.621e-02,1.020e+01
4.672e-02,9.218e+00
4.724e-02,8.945e+00
4.776e-02,7.691e+00
4.827e-02,7.346e+00
4.879e-02,6.828e+00
4.931e-02,6.163e+00
4.982e-02,5.856e+00
5.034e-02,5.305e+00
5.085e-02,4.937e+00
5.137e-02,4.475e+00
5.189e-02,4.267e+00
5.240e-02,3.669e+00
5.292e-02,3.263e+00
5.344e-02,3.164e+00
5.395e-02,2.754e+00
5.447e-02,2.551e+00
5.498e-02,2.362e+00
5.550e-02,2.127e+00
5.602e-02,2.089e+00
5.653e-02,1.759e+00
5.705e-02,1.551e+00
5.757e-02,1.547e+00
5.808e-02,1.386e+00
5.860e-02,1.283e+00
5.911e-02,1.066e+00
5.963e-02,9.289e-01
6.015e-02,9.525e-01
6.066e-02,7.827e-01
6.118e-02,7.026e-01
6.170e-02,6.224e-01
6.221e-02,6.036e-01
6.273e-02,4.762e-01
6.324e-02,4.715e-01
6.376e-02,4.480e-01
6.428e-02,3.206e-01
6.479e-02,2.876e-01
6.531e-02,3.301e-01
6.583e-02,2.876e-01
6.634e-02,3.206e-01
6.686e-02,1.933e-01
6.738e-02,2.405e-01
6.789e-02,1.650e-01
6.841e-02,1.650e-01
6.892e-02,1.367e-01
6.944e-02,1.273e-01
6.996e-02,7.545e-02
7.047e-02,1.037e-01
7.099e-02,6.130e-02
7.151e-02,1.085e-01
7.202e-02,8.488e-02
7.254e-02,5.187e-02
7.305e-02,6.601e-02
7.357e-02,7.073e-02
7.409e-02,3.772e-02
7.460e-02,4.715e-02
7.512e-02,5.187e-02
7.564e-02,2.829e-02
7.615e-02,1.415e-02
7.667e-02,3.301e-02
7.718e-02,2.829e-02
7.770e-02,4.715e-03
7.822e-02,2.829e-02
7.873e-02,1.886e-02
7.925e-02,2.358e-02
7.977e-02,1.886e-02
8.028e-02,9.431e-03
8.080e-02,0.000e+00
8.131e-02,9.431e-03
8.183e-02,9.431e-03
8.235e-02,4.715e-03
8.286e-02,1.886e-02
8.338e-02,0.000e+00
8.390e-02,0.000e+00
8.441e-02,4.715e-03
8.493e-02,4.715e-03
8.545e-02,9.431e-03
8.596e-02,0.000e+00
8.648e-02,4.715e-03
8.699e-02,9.431e-03
8.751e-02,0.000e+00
8.803e-02,4.715e-03
8.854e-02,0.000e+00
8.906e-02,4.715e-03
8.958e-02,0.000e+00
9.009e-02,0.000e+00
9.061e-02,0.000e+00
9.112e-02,0.000e+00
9.164e-02,0.000e+00
9.216e-02,0.000e+00
9.267e-02,0.000e+00
9.319e-02,9.431e-03
9.371e-02,4.715e-03
9.422e-02,0.000e+00
9.474e-02,0.000e+00
9.525e-02,0.000e+00
9.577e-02,0.000e+00
9.629e-02,0.000e+00
9.680e-02,0.000e+00
9.732e-02,0.000e+00
9.784e-02,0.000e+00
9.835e-02,0.000e+00
9.887e-02,0.000e+00
9.938e-02,0.000e+00
9.990e-02,0.000e+00
1.004e-01,0.000e+00
1.009e-01,0.000e+00
1.015e-01,0.000e+00
1.020e-01,0.000e+00
1.025e-01,0.000e+00
1.030e-01,0.000e+00
